Folder: CICD-RF/data

Note: README.md
App to deploy on Heroku

File: model_test.csv
Cement,Slag,Fly ash,Water,SP,Coarse Aggr.,Fine Aggr.,SLUMP(cm),FLOW(cm)
273,82,105,210,9,904,680,23,62
163,149,191,180,12,843,746,0,20
162,148,191,179,16,840,743,1,20
162,148,190,179,19,838,741,3,21.5
154,112,144,220,10,923,658,20,64
147,89,115,202,9,860,829,23,55
152,139,178,168,18,944,695,0,20
145,0,227,240,6,750,853,14.5,58.5
152,0,237,204,6,785,892,15.5,51
304,0,140,214,6,895,722,19,51
145,106,136,208,10,751,883,24.5,61
148,109,139,193,7,768,902,23.75,58